<Bundle xmlns="http://hl7.org/fhir">
    <id value="ps-02"/>
    <meta>
        <lastUpdated value="2019-09-17T09:01:00+10:00"/>
       <profile value="http://hl7.org.au.draft/fhir/aups/StructureDefinition/au-exp-ps-composition"/>
    </meta>
    <identifier>
        <system value="urn:ietf:rfc:3986"/>
        <value value="urn:uuid:e41cf5be-065d-4f48-9342-b399a34bf2c5"/>
    </identifier>
    <type value="document"/>
    <timestamp value="2019-09-17T09:01:00+10:00"/>
    <!--     Composition     -->
    <entry>
        <fullUrl value="urn:uuid:3f883564-c6af-4ca3-83c7-f7c7b5239026"/>
        <resource>
            <Composition>
                <id value="3f883564-c6af-4ca3-83c7-f7c7b5239026"/>
                <meta>
                    <profile value="http://hl7.org.au.draft/fhir/aups/StructureDefinition/au-exp-ps-composition"/>
                </meta>
                <language value="en-AU"/>
                <!--  Multiple information-recipients of different resource type  -->
                <extension url="http://hl7.org.au/fhir/StructureDefinition/information-recipient">
                    <valueReference>
                        <reference value="urn:uuid:aa0dbd5f-4c3a-4623-a94c-4a7735b79851"/>
                    </valueReference>
                </extension>
                <identifier>
                    <system value="urn:ietf:rfc:3986"/>
                    <value value="urn:uuid:b08d5b0a-5c5f-4e21-ae5d-f157405159ad"/>
                </identifier>
                <status value="final"/>
                <type>
                    <coding>
                        <system value="http://loinc.org"/>
                        <code value="60591-5"/>
                    </coding>
                </type>
                <category>
                    <coding>
                        <system value="http://loinc.org"/>
                        <code value="60591-5"/>
                    </coding>
                </category>
                <subject>
                    <reference value="urn:uuid:aa0dbd5f-4c3a-4623-a94c-4a7735b79851"/>
                </subject>
                <date value="2019-09-17T09:00:00+10:00"/>
                <author>
                    <reference value="urn:uuid:7adbe61a-fe69-4dc8-b2f6-a9e55a8b2127"/>
                </author>
                <title value="Patient Summary"/>
                <attester>
                    <mode value="legal"/>
                    <time value="2019-09-17T09:00:00+10:00"/>
                    <party>
                        <reference value="urn:uuid:7adbe61a-fe69-4dc8-b2f6-a9e55a8b2127"/>
                    </party>
                </attester>
                <custodian>
                    <reference value="urn:uuid:4a78dc16-a7d0-4fc4-a505-3efd53012ac6"/>
                </custodian>
                <section>
                    <title value="Medicines"/>
                    <code>
                        <coding>
                            <system value="http://loinc.org"/>
                            <code value="10160-0"/>
                        </coding>
                    </code>
                    <text>
                        <status value="additional"/>
                        <div xmlns="http://www.w3.org/1999/xhtml" lang="en-AU">
                            <table border="5">
                                <caption>Medicines</caption>
                                <thead>
                                    <tr>
                                        <th>Medication</th>
                                    </tr>
                                </thead>
                                <tbody>
                                    <tr>
                                        <td>Reaptan 10 mg/10 mg (perindopril arginine/amlodipine) tablet, 10</td>
                                    </tr>
                                </tbody>
                            </table>
                        </div>
                    </text>
                    <entry>
                        <reference value="urn:uuid:906f441e-de7f-4154-8487-8f3dac849c28"/>
                    </entry>
                </section>
                <section>
                    <title value="Allergies and Adverse Reactions"/>
                    <code>
                        <coding>
                            <system value="http://loinc.org"/>
                            <code value="48765-2"/>
                            <display value="Allergies and adverse reactions Document"/>
                        </coding>
                    </code>
                    <text>
                        <status value="additional"/>
                        <div xmlns="http://www.w3.org/1999/xhtml" lang="en-AU">
                            <p>Intolerance to lactose</p>
                        </div>
                    </text>
                    <entry>
                        <reference value="urn:uuid:3d6d0334-b72b-49f3-9932-bc7befa84977"/>
                    </entry>
                </section>
                <section>
                    <title value="Problems"/>
                    <code>
                        <coding>
                            <system value="http://loinc.org"/>
                            <code value="11450-4"/>
                            <display value="Problem list - Reported"/>
                        </coding>
                    </code>
                    <text>
                        <status value="additional"/>
                        <div xmlns="http://www.w3.org/1999/xhtml">
                            <table border="5">
                                <caption>Problems and Diagnoses</caption>
                                <thead>
                                    <tr>
                                        <th>Condition</th>
                                        <th>Onset</th>
                                        <th>Abatement / Resolution</th>
                                    </tr>
                                </thead>
                                <tbody>
                                    <tr>
                                        <td>Chronic kidney disease</td>
                                        <td>2019</td>
                                        <td>-</td>
                                    </tr>
                                    <tr>
                                        <td>Right lower zone pneumonia</td>
                                        <td>March 2019</td>
                                        <td>April 2019</td>
                                    </tr>
                                </tbody>
                            </table>
                            <table border="5">
                                <caption>Procedures</caption>
                                <thead>
                                    <tr>
                                        <th>Procedure</th>
                                        <th>Date</th>
                                    </tr>
                                </thead>
                                <tbody>
                                    <tr>
                                        <td>Total replacement of left knee joint</td>
                                        <td>27 February 2019</td>
                                    </tr>
                                </tbody>
                            </table>
                        </div>
                    </text>
                    <entry>
                        <reference value="urn:uuid:441d4811-87bd-4979-a6bf-e097664b903f"/>
                    </entry>
                </section>
                <section>
                    <title value="Immunisations"/>
                    <code>
                        <coding>
                            <system value="http://loinc.org"/>
                            <code value="11369-6"/>
                            <display value="History of Immunization Narrative"/>
                        </coding>
                    </code>
                    <text>
                        <status value="additional"/>
                        <div xmlns="http://www.w3.org/1999/xhtml" lang="en-AU">
                            <table border="5">
                                <caption>Immunisations</caption>
                                <thead>
                                    <tr>
                                        <th>Vaccine</th>
                                        <th>Date administered</th>
                                    </tr>
                                </thead>
                                <tbody>
                                    <tr>
                                        <td>Pfizer Comirnaty</td>
                                        <td>17 June 2021</td>
                                        <td/>
                                    </tr>
                                </tbody>
                            </table>
                        </div>
                    </text>
                    <entry>
                        <reference value="urn:uuid:e704739d-4139-403c-8ce1-776cb1f25210"/>
                    </entry>
                </section>
            </Composition>
        </resource>
    </entry>
    <!--     Patient -->
    <entry>
        <fullUrl value="urn:uuid:aa0dbd5f-4c3a-4623-a94c-4a7735b79851"/>
        <resource>
            <Patient>
                <id value="aa0dbd5f-4c3a-4623-a94c-4a7735b79851"/>
                <meta>
                    <profile value="http://hl7.org.au.draft/fhir/aups/StructureDefinition/au-exp-ps-patient"/>
                </meta>
                <extension url="http://hl7.org/fhir/StructureDefinition/patient-birthPlace">
                    <valueAddress>
                        <text value="China"/>
                        <country value="CHN"/>
                    </valueAddress>
                </extension>
                <extension url="http://hl7.org.au/fhir/StructureDefinition/indigenous-status">
                    <valueCoding>
                        <system value="https://healthterminologies.gov.au/fhir/CodeSystem/australian-indigenous-status-1"/>
                        <code value="4"/>
                        <display value="Neither Aboriginal nor Torres Strait Islander origin"/>
                    </valueCoding>
                </extension>
                <extension url="http://hl7.org/fhir/StructureDefinition/patient-interpreterRequired">
                    <valueBoolean value="true"/>
                </extension>
                <extension url="http://hl7.org.au/fhir/StructureDefinition/date-of-arrival">
                    <valueDate value="2015"/>
                </extension>
                <identifier>
                    <extension url="http://hl7.org.au/fhir/StructureDefinition/ihi-status">
                        <valueCoding>
                            <system value="https://healthterminologies.gov.au/fhir/CodeSystem/ihi-status-1"/>
                            <code value="active"/>
                        </valueCoding>
                    </extension>
                    <extension url="http://hl7.org.au/fhir/StructureDefinition/ihi-record-status">
                        <valueCoding>
                            <system value="https://healthterminologies.gov.au/fhir/CodeSystem/ihi-record-status-1"/>
                            <code value="verified"/>
                            <display value="verified"/>
                        </valueCoding>
                    </extension>
                    <type>
                        <coding>
                            <system value="http://terminology.hl7.org/CodeSystem/v2-0203"/>
                            <code value="NI"/>
                        </coding>
                        <text value="IHI"/>
                    </type>
                    <system value="http://ns.electronichealth.net.au/id/hi/ihi/1.0"/>
                    <value value="8003608833357361"/>
                </identifier>
                <identifier>
                    <type>
                        <coding>
                            <system value="http://terminology.hl7.org/CodeSystem/v2-0203"/>
                            <code value="MC"/>
                        </coding>
                        <text value="Medicare Number"/>
                    </type>
                    <system value="http://ns.electronichealth.net.au/id/medicare-number"/>
                    <value value="29533070322"/>
                </identifier>
                <identifier>
                    <type>
                        <coding>
                            <system value="http://terminology.hl7.org/CodeSystem/v2-0203"/>
                            <code value="MR"/>
                            <display value="Medical record number"/>
                        </coding>
                        <text value="Medical Record Number"/>
                    </type>
                    <system value="http://ns.electronichealth.net.au/id/hpio-scoped/medicalrecord/1.0/8003621566684455"/>
                    <value value="2338189"/>
                    <assigner>
                        <display value="Large Metropolitan Hospital"/>
                    </assigner>
                </identifier>
                <name>
                    <family value="Wang"/>
                    <given value="Li"/>
                    <prefix value="Mr"/>
                </name>
                <gender value="male"/>
                <birthDate value="1975-05-03">
                    <extension url="http://hl7.org.au/fhir/StructureDefinition/date-accuracy-indicator">
                        <valueCoding>
                            <system value="https://healthterminologies.gov.au/fhir/CodeSystem/date-accuracy-indicator-1"/>
                            <code value="AAA"/>
                            <display value="Day, month and year are accurate"/>
                        </valueCoding>
                    </extension>
                </birthDate>
                <address>
                    <use value="home"/>
                    <line value="29 Gadsby Street"/>
                    <city value="Blacktown"/>
                    <state value="NSW"/>
                    <postalCode value="2148"/>
                    <country value="AU"/>
                </address>
                <contact>
                    <relationship>
                        <coding>
                            <system value="http://terminology.hl7.org/CodeSystem/v3-RoleCode"/>
                            <code value="FRND"/>
                            <display value="unrelated friend"/>
                        </coding>
                        <coding>
                            <system value="http://terminology.hl7.org/CodeSystem/v2-0131"/>
                            <code value="C"/>
                            <display value="Emergency Contact"/>
                        </coding>
                    </relationship>
                    <name>
                        <use value="usual"/>
                        <family value="Rabbit"/>
                        <given value="Peter"/>
                        <given value="Rabbit"/>
                    </name>
                    <telecom>
                        <system value="phone"/>
                        <value value="07 853 9191"/>
                        <use value="home"/>
                    </telecom>
                    <address>
                        <use value="home"/>
                        <line value="29 Gadsby Street"/>
                        <city value="Blacktown"/>
                        <state value="NSW"/>
                        <postalCode value="2148"/>
                        <country value="AU"/>
                    </address>
                </contact>
                <communication>
                    <language>
                        <coding>
                            <system value="urn:ietf:bcp:47"/>
                            <code value="yue"/>
                        </coding>
                        <text value="Cantonese"/>
                    </language>
                    <preferred value="true"/>
                </communication>
            </Patient>
        </resource>
    </entry>
    <!--     PractitionerRole     -->
    <entry>
        <fullUrl value="urn:uuid:7adbe61a-fe69-4dc8-b2f6-a9e55a8b2127"/>
        <resource>
            <PractitionerRole>
                <id value="7adbe61a-fe69-4dc8-b2f6-a9e55a8b2127"/>
                <meta>
                    <profile value="http://hl7.org.au.draft/fhir/aups/StructureDefinition/au-exp-ps-practitionerrole"/>
                </meta>
                <identifier>
                    <type>
                        <coding>
                            <system value="http://terminology.hl7.org/CodeSystem/v2-0203"/>
                            <code value="EI"/>
                            <display value="Employee number"/>
                        </coding>
                        <text value="Employee Number"/>
                    </type>
                    <system value="http://ns.electronichealth.net.au/id/hpio-scoped/service-provider-individual/1.0/8003621566684455"/>
                    <value value="BBC-GA-001"/>
                    <assigner>
                        <display value="Bobregster Medical Center QLD"/>
                    </assigner>
                </identifier>
                <identifier>
                    <type>
                        <coding>
                            <system value="http://terminology.hl7.org/CodeSystem/v2-0203"/>
                            <code value="NPI"/>
                            <display value="National provider identifier"/>
                        </coding>
                        <text value="HPI-I"/>
                    </type>
                    <system value="http://ns.electronichealth.net.au/id/hi/hpii/1.0"/>
                    <value value="8003619900015717"/>
                </identifier>
                <practitioner>
                    <identifier>
                        <type>
                            <coding>
                                <system value="http://terminology.hl7.org.au/CodeSystem/v2-0203"/>
                                <code value="PRES"/>
                                <display value="Prescriber Number"/>
                            </coding>
                            <text value="Prescriber Number"/>
                        </type>
                        <system value="http://ns.electronichealth.net.au/id/medicare-prescriber-number"/>
                        <value value="553255"/>
                    </identifier>
                </practitioner>
                <organization>
                    <identifier>
                        <type>
                            <coding>
                                <system value="http://terminology.hl7.org.au/CodeSystem/v2-0203"/>
                                <code value="NOI"/>
                            </coding>
                            <text value="HPI-O"/>
                        </type>
                        <system value="http://ns.electronichealth.net.au/id/hi/hpio/1.0"/>
                        <value value="8003621566684455"/>
                    </identifier>
                </organization>
                <code>
                    <coding>
                        <system value="http://snomed.info/sct"/>
                        <code value="62247001"/>
                    </coding>
                    <coding>
                        <system value="http://www.abs.gov.au/ausstats/abs@.nsf/mf/1220.0"/>
                        <code value="253111"/>
                    </coding>
                    <text value="General Practitioner"/>
                </code>
                <telecom>
                    <system value="phone"/>
                    <value value="0491579760"/>
                </telecom>
                <telecom>
                    <system value="email"/>
                    <value value="drbob@bobrestermedical.example.com"/>
                </telecom>
            </PractitionerRole>
        </resource>
    </entry>
    <!--     Practitioner     -->
    <!-- <entry>
        <fullUrl value="urn:uuid:40a94071-8373-4d53-a788-63b79c75a3c1"/>
        <resource>
            <Practitioner>
                <id value="40a94071-8373-4d53-a788-63b79c75a3c1"/>
                <identifier>
                    <type>
                        <coding>
                            <system value="http://terminology.hl7.org.au/CodeSystem/v2-0203"/>
                            <code value="UPIN"/>
                        </coding>
                        <text value="Medicare Provider Number"/>
                    </type>
                    <system value="http://ns.electronichealth.net.au/id/medicare-provider-number"/>
                    <value value="1234561A"/>
                </identifier>
                <name>
                    <family value="Bobrester"/>
                    <given value="Bob"/>
                    <prefix value="Dr."/>
                </name>
                <telecom>
                    <system value="email"/>
                    <value value="drbob@bobrestermedical.example.com"/>
                </telecom>
                <qualification>
                    <extension url="http://hl7.org.au/fhir/StructureDefinition/ahpraprofession-details">
                        <extension url="ahpraProfession">
                            <valueCodeableConcept>
                                <text value="Medical Practitioner"/>
                            </valueCodeableConcept>
                        </extension>
                    </extension>
                    <identifier>
                        <type>
                            <coding>
                                <system value="http://terminology.hl7.org.au/CodeSystem/v2-0203"/>
                                <code value="AHPRA"/>
                                <display value="Australian Health Practitioner Regulation Agency Registration Number"/>
                            </coding>
                            <text value="Ahpra Registration Number"/>
                        </type>
                        <system value="http://hl7.org.au/id/ahpra-registration-number"/>
                        <value value="MED0002137855"/>
                    </identifier>
                    <code>
                        <coding>
                            <system value="http://terminology.hl7.org.au/CodeSystem/v2-0360"/>
                            <code value="AUAHPRAProfession"/>
                        </coding>
                        <text value="Medical Practitioner"/>
                    </code>
                    <period>
                        <start value="1996-02-08"/>
                    </period>
                    <issuer>
                        <display value="Australian Health Practitioner Regulation Agency"/>
                    </issuer>
                </qualification>
            </Practitioner>
        </resource>
    </entry> -->
    <!--     Organization     -->
    <entry>
        <fullUrl value="urn:uuid:4a78dc16-a7d0-4fc4-a505-3efd53012ac6"/>
        <resource>
            <Organization>
                <id value="4a78dc16-a7d0-4fc4-a505-3efd53012ac6"/>
                <meta>
                    <profile value="http://hl7.org.au.draft/fhir/aups/StructureDefinition/au-exp-ps-organization"/>
                </meta>
                <type>
                    <coding>
                        <system value="http://snomed.info/sct"/>
                        <code value="288565001"/>
                        <display value="Medical centre"/>
                    </coding>
                    <text value="Medical Center"/>
                </type>
                <name value="Bobrester Medical Center"/>
                <telecom>
                    <system value="email"/>
                    <value value="info@bobrestermedical.example.com"/>
                    <use value="work"/>
                </telecom>
                <telecom>
                    <system value="phone"/>
                    <value value="(07) 5550 2427"/>
                    <use value="work"/>
                </telecom>
                <address>
                    <line value="87 Western Esp"/>
                    <city value="Tindal RAAF"/>
                    <state value="QLD"/>
                    <postalCode value="4655"/>
                    <country value="AU"/>
                </address>
            </Organization>
        </resource>
    </entry>
    <!--     MedicationRequest     -->
    <entry>
        <fullUrl value="urn:uuid:906f441e-de7f-4154-8487-8f3dac849c28"/>
        <resource>
            <MedicationRequest xmlns="http://hl7.org/fhir">
                <id value="906f441e-de7f-4154-8487-8f3dac849c28"/>
                <meta>
                    <profile value="http://hl7.org.au.draft/fhir/aups/StructureDefinition/au-exp-ps-medicationrequest"/>
                </meta>
                <contained>
                    <Medication>
                        <id value="med1"/>
                        <code>
                            <coding>
                                <system value="http://snomed.info/sct"/>
                                <code value="926213011000036100"/>
                            </coding>
                            <text value="Reaptan 10 mg/10 mg (perindopril arginine/amlodipine) tablet, 10"/>
                        </code>
                    </Medication>
                </contained>
                <status value="active"/>
                <intent value="order"/>
                <medicationReference>
                    <reference value="#med1"/>
                </medicationReference>
                <subject>
                    <reference value="urn:uuid:aa0dbd5f-4c3a-4623-a94c-4a7735b79851"/>
                </subject>
            </MedicationRequest>
        </resource>
    </entry>
    <!--     Condition     -->
    <entry>
        <fullUrl value="urn:uuid:441d4811-87bd-4979-a6bf-e097664b903f"/>
        <resource>
            <Condition xmlns="http://hl7.org/fhir">
                <id value="441d4811-87bd-4979-a6bf-e097664b903f"/>
                <meta>
                    <profile value="http://hl7.org.au.draft/fhir/aups/StructureDefinition/au-exp-ps-condition"/>
                </meta>
                <clinicalStatus>
                    <coding>
                        <system value="http://terminology.hl7.org/CodeSystem/condition-clinical"/>
                        <code value="active"/>
                        <display value="Active"/>
                    </coding>
                    <text value="Active"/>
                </clinicalStatus>
                <verificationStatus>
                    <coding>
                        <system value="http://terminology.hl7.org/CodeSystem/condition-ver-status"/>
                        <code value="confirmed"/>
                    </coding>
                </verificationStatus>
                <severity>
                    <coding>
                        <system value="http://snomed.info/sct"/>
                        <code value="24484000"/>
                        <display value="Severe"/>
                    </coding>
                </severity>
                <code>
                    <coding>
                        <system value="http://snomed.info/sct"/>
                        <code value="709044004"/>
                        <display value="Chronic kidney disease"/>
                    </coding>
                </code>
                <subject>
                    <reference value="urn:uuid:aa0dbd5f-4c3a-4623-a94c-4a7735b79851"/>
                </subject>
            </Condition>
        </resource>
    </entry>
    <!--     Immunization     -->
    <entry>
        <fullUrl value="urn:uuid:e704739d-4139-403c-8ce1-776cb1f25210"/>
        <resource>
            <Immunization xmlns="http://hl7.org/fhir">
                <id value="e704739d-4139-403c-8ce1-776cb1f25210"/>
                <meta>
                    <profile value="http://hl7.org.au.draft/fhir/aups/StructureDefinition/au-exp-ps-immunization"/>
                </meta>
                <status value="completed"/>
                <vaccineCode>
                    <coding>
                        <system value="https://www.humanservices.gov.au/organisations/health-professionals/enablers/air-vaccine-code-formats"/>
                        <code value="COMIRN"/>
                    </coding>
                    <coding>
                        <system value="http://snomed.info/sct"/>
                        <code value="1525011000168107"/>
                        <display value="Comirnaty"/>
                    </coding>
                    <coding>
                        <system value="http://snomed.info/sct"/>
                        <code value="1708651000168101"/>
                    </coding>
                    <text value="Pfizer Comirnaty"/>
                </vaccineCode>
                <patient>
                    <reference value="urn:uuid:aa0dbd5f-4c3a-4623-a94c-4a7735b79851"/>
                </patient>
                <occurrenceDateTime value="2021-06-17"/>
                <recorded value="2021-06-17"/>
                <primarySource value="true"/>
            </Immunization>
        </resource>
    </entry>
    <entry>
        <fullUrl value="urn:uuid:3d6d0334-b72b-49f3-9932-bc7befa84977"/>
        <resource>
            <AllergyIntolerance xmlns="http://hl7.org/fhir">
                <id value="3d6d0334-b72b-49f3-9932-bc7befa84977"/>
                <meta>
                    <profile value="http://hl7.org.au.draft/fhir/aups/StructureDefinition/au-exp-ps-allergyintolerance"/>
                </meta>
                <clinicalStatus>
                    <coding>
                        <system value="http://terminology.hl7.org/CodeSystem/allergyintolerance-clinical"/>
                        <code value="active"/>
                        <display value="Active"/>
                    </coding>
                </clinicalStatus>
                <verificationStatus>
                    <coding>
                        <system value="http://terminology.hl7.org/CodeSystem/allergyintolerance-verification"/>
                        <code value="confirmed"/>
                        <display value="Confirmed"/>
                    </coding>
                </verificationStatus>
                <code>
                    <coding>
                        <system value="http://snomed.info/sct"/>
                        <code value="782415009"/>
                        <display value="Intolerance to lactose"/>
                    </coding>
                </code>
                <patient>
                    <identifier>
                        <extension url="http://hl7.org.au/fhir/StructureDefinition/ihi-status">
                            <valueCoding>
                                <system value="https://healthterminologies.gov.au/fhir/CodeSystem/ihi-status-1"/>
                                <code value="active"/>
                            </valueCoding>
                        </extension>
                        <extension url="http://hl7.org.au/fhir/StructureDefinition/ihi-record-status">
                            <valueCoding>
                                <system value="https://healthterminologies.gov.au/fhir/CodeSystem/ihi-record-status-1"/>
                                <code value="verified"/>
                                <display value="verified"/>
                            </valueCoding>
                        </extension>
                        <type>
                            <coding>
                                <system value="http://terminology.hl7.org/CodeSystem/v2-0203"/>
                                <code value="NI"/>
                            </coding>
                            <text value="IHI"/>
                        </type>
                        <system value="http://ns.electronichealth.net.au/id/hi/ihi/1.0"/>
                        <value value="8003608333647261"/>
                    </identifier>
                    <reference value="urn:uuid:91d07c7b-8005-45fa-b7a5-52b2b5b99b04"/>
                </patient>
            </AllergyIntolerance>
        </resource>
    </entry>
</Bundle>
